STUDYID,SUBJID,USUBJID,TRTP,TRTPN,TRTA,TRTAN,TRTSDT,TRTEDT,AGE,AGEGR1,AGEGR1N,RACE,RACEN,SEX,COMP24FL,DSRAEFL,SAFFL,AVISIT,AVISITN,ADY,ADT,VISIT,VISITNUM,PARAM,PARAMCD,PARAMN,PARCAT1,AVAL,BASE,CHG,A1LO,A1HI,R2A1LO,R2A1HI,BR2A1LO,BR2A1HI,ANL01FL,ALBTRVAL,ANRIND,BNRIND,ABLFL,AENTMTFL,LBSEQ,LBNRIND,LBSTRESN
CDISCPILOT01,1015,01-701-1015,Placebo,0.0,Placebo,0.0,2024-01-03,2024-07-02,63.0,<65,1.0,WHITE,1.0,F,Y,,Y,Baseline,0.0,-7.0,2023-12-27,SCREENING 1,1.0,Sodium (mmol/L),SODIUM,18.0,CHEM,140.0,140.0,<NA>,135.0,145.0,1.037037037037037,0.9655172413793104,1.037037037037037,0.9655172413793104,,77.5,N,N,Y,,27.0,NORMAL,140.0
CDISCPILOT01,1015,01-701-1015,Placebo,0.0,Placebo,0.0,2024-01-03,2024-07-02,63.0,<65,1.0,WHITE,1.0,F,Y,,Y,Week 2,2.0,15.0,2024-01-17,WEEK 2,4.0,Sodium (mmol/L),SODIUM,18.0,CHEM,142.0,140.0,2.0,135.0,145.0,1.0518518518518518,0.9793103448275862,1.037037037037037,0.9655172413793104,,75.5,N,N,,,64.0,NORMAL,142.0
CDISCPILOT01,1015,01-701-1015,Placebo,0.0,Placebo,0.0,2024-01-03,2024-07-02,63.0,<65,1.0,WHITE,1.0,F,Y,,Y,Week 4,4.0,29.0,2024-01-31,WEEK 4,5.0,Sodium (mmol/L),SODIUM,18.0,CHEM,140.0,140.0,0.0,135.0,145.0,1.037037037037037,0.9655172413793104,1.037037037037037,0.9655172413793104,,77.5,N,N,,,97.0,NORMAL,140.0
CDISCPILOT01,1015,01-701-1015,Placebo,0.0,Placebo,0.0,2024-01-03,2024-07-02,63.0,<65,1.0,WHITE,1.0,F,Y,,Y,Week 6,6.0,42.0,2024-02-13,WEEK 6,7.0,Sodium (mmol/L),SODIUM,18.0,CHEM,140.0,140.0,0.0,135.0,145.0,1.037037037037037,0.9655172413793104,1.037037037037037,0.9655172413793104,,77.5,N,N,,,127.0,NORMAL,140.0
CDISCPILOT01,1015,01-701-1015,Placebo,0.0,Placebo,0.0,2024-01-03,2024-07-02,63.0,<65,1.0,WHITE,1.0,F,Y,,Y,Week 8,8.0,63.0,2024-03-05,WEEK 8,8.0,Sodium (mmol/L),SODIUM,18.0,CHEM,141.0,140.0,1.0,135.0,145.0,1.0444444444444445,0.9724137931034482,1.037037037037037,0.9655172413793104,,76.5,N,N,,,157.0,NORMAL,141.0
CDISCPILOT01,1015,01-701-1015,Placebo,0.0,Placebo,0.0,2024-01-03,2024-07-02,63.0,<65,1.0,WHITE,1.0,F,Y,,Y,Week 12,12.0,84.0,2024-03-26,WEEK 12,9.0,Sodium (mmol/L),SODIUM,18.0,CHEM,139.0,140.0,-1.0,135.0,145.0,1.0296296296296297,0.9586206896551724,1.037037037037037,0.9655172413793104,Y,78.5,N,N,,,189.0,NORMAL,139.0
CDISCPILOT01,1015,01-701-1015,Placebo,0.0,Placebo,0.0,2024-01-03,2024-07-02,63.0,<65,1.0,WHITE,1.0,F,Y,,Y,Week 16,16.0,126.0,2024-05-07,WEEK 16,10.0,Sodium (mmol/L),SODIUM,18.0,CHEM,141.0,140.0,1.0,135.0,145.0,1.0444444444444445,0.9724137931034482,1.037037037037037,0.9655172413793104,,76.5,N,N,,,222.0,NORMAL,141.0
CDISCPILOT01,1015,01-701-1015,Placebo,0.0,Placebo,0.0,2024-01-03,2024-07-02,63.0,<65,1.0,WHITE,1.0,F,Y,,Y,Week 20,20.0,140.0,2024-05-21,WEEK 20,11.0,Sodium (mmol/L),SODIUM,18.0,CHEM,142.0,140.0,2.0,135.0,145.0,1.0518518518518518,0.9793103448275862,1.037037037037037,0.9655172413793104,,75.5,N,N,,,252.0,NORMAL,142.0
CDISCPILOT01,1015,01-701-1015,Placebo,0.0,Placebo,0.0,2024-01-03,2024-07-02,63.0,<65,1.0,WHITE,1.0,F,Y,,Y,Week 24,24.0,168.0,2024-06-18,WEEK 24,12.0,Sodium (mmol/L),SODIUM,18.0,CHEM,140.0,140.0,0.0,135.0,145.0,1.037037037037037,0.9655172413793104,1.037037037037037,0.9655172413793104,,77.5,N,N,,Y,284.0,NORMAL,140.0
CDISCPILOT01,1015,01-701-1015,Placebo,0.0,Placebo,0.0,2024-01-03,2024-07-02,63.0,<65,1.0,WHITE,1.0,F,Y,,Y,End of Treatment,99.0,168.0,2024-06-18,WEEK 24,12.0,Sodium (mmol/L),SODIUM,18.0,CHEM,140.0,140.0,0.0,135.0,145.0,1.037037037037037,0.9655172413793104,1.037037037037037,0.9655172413793104,,77.5,N,N,,Y,284.0,NORMAL,140.0
CDISCPILOT01,1015,01-701-1015,Placebo,0.0,Placebo,0.0,2024-01-03,2024-07-02,63.0,<65,1.0,WHITE,1.0,F,Y,,Y,Week 26,26.0,182.0,2024-07-02,WEEK 26,13.0,Sodium (mmol/L),SODIUM,18.0,CHEM,140.0,140.0,0.0,135.0,145.0,1.037037037037037,0.9655172413793104,1.037037037037037,0.9655172413793104,,77.5,N,N,,,317.0,NORMAL,140.0
CDISCPILOT01,1023,01-701-1023,Placebo,0.0,Placebo,0.0,2022-08-06,2022-09-02,64.0,<65,1.0,WHITE,1.0,M,N,Y,Y,Baseline,0.0,-14.0,2022-07-23,SCREENING 1,1.0,Sodium (mmol/L),SODIUM,18.0,CHEM,142.0,142.0,<NA>,135.0,145.0,1.0518518518518518,0.9793103448275862,1.0518518518518518,0.9793103448275862,,75.5,N,N,Y,,26.0,NORMAL,142.0
CDISCPILOT01,1023,01-701-1023,Placebo,0.0,Placebo,0.0,2022-08-06,2022-09-02,64.0,<65,1.0,WHITE,1.0,M,N,Y,Y,Week 2,2.0,23.0,2022-08-28,WEEK 2,4.0,Sodium (mmol/L),SODIUM,18.0,CHEM,140.0,142.0,-2.0,135.0,145.0,1.037037037037037,0.9655172413793104,1.0518518518518518,0.9793103448275862,Y,77.5,N,N,,,63.0,NORMAL,140.0
CDISCPILOT01,1023,01-701-1023,Placebo,0.0,Placebo,0.0,2022-08-06,2022-09-02,64.0,<65,1.0,WHITE,1.0,M,N,Y,Y,Week 4,4.0,29.0,2022-09-03,WEEK 4,5.0,Sodium (mmol/L),SODIUM,18.0,CHEM,141.0,142.0,-1.0,135.0,145.0,1.0444444444444445,0.9724137931034482,1.0518518518518518,0.9793103448275862,,76.5,N,N,,Y,98.0,NORMAL,141.0
CDISCPILOT01,1023,01-701-1023,Placebo,0.0,Placebo,0.0,2022-08-06,2022-09-02,64.0,<65,1.0,WHITE,1.0,M,N,Y,Y,End of Treatment,99.0,29.0,2022-09-03,WEEK 4,5.0,Sodium (mmol/L),SODIUM,18.0,CHEM,141.0,142.0,-1.0,135.0,145.0,1.0444444444444445,0.9724137931034482,1.0518518518518518,0.9793103448275862,,76.5,N,N,,Y,98.0,NORMAL,141.0
CDISCPILOT01,1028,01-701-1028,Xanomeline High Dose,81.0,Xanomeline High Dose,81.0,2023-07-20,2024-01-15,71.0,65-80,2.0,WHITE,1.0,M,Y,,Y,Baseline,0.0,-8.0,2023-07-12,SCREENING 1,1.0,Sodium (mmol/L),SODIUM,18.0,CHEM,139.0,139.0,<NA>,135.0,145.0,1.0296296296296297,0.9586206896551724,1.0296296296296297,0.9586206896551724,,78.5,N,N,Y,,26.0,NORMAL,139.0
CDISCPILOT01,1028,01-701-1028,Xanomeline High Dose,81.0,Xanomeline High Dose,81.0,2023-07-20,2024-01-15,71.0,65-80,2.0,WHITE,1.0,M,Y,,Y,Week 2,2.0,14.0,2023-08-02,WEEK 2,4.0,Sodium (mmol/L),SODIUM,18.0,CHEM,137.0,139.0,-2.0,135.0,145.0,1.0148148148148148,0.9448275862068966,1.0296296296296297,0.9586206896551724,,80.5,N,N,,,63.0,NORMAL,137.0
CDISCPILOT01,1028,01-701-1028,Xanomeline High Dose,81.0,Xanomeline High Dose,81.0,2023-07-20,2024-01-15,71.0,65-80,2.0,WHITE,1.0,M,Y,,Y,Week 4,4.0,27.0,2023-08-15,WEEK 4,5.0,Sodium (mmol/L),SODIUM,18.0,CHEM,139.0,139.0,0.0,135.0,145.0,1.0296296296296297,0.9586206896551724,1.0296296296296297,0.9586206896551724,,78.5,N,N,,,96.0,NORMAL,139.0
CDISCPILOT01,1028,01-701-1028,Xanomeline High Dose,81.0,Xanomeline High Dose,81.0,2023-07-20,2024-01-15,71.0,65-80,2.0,WHITE,1.0,M,Y,,Y,Week 6,6.0,42.0,2023-08-30,WEEK 6,7.0,Sodium (mmol/L),SODIUM,18.0,CHEM,138.0,139.0,-1.0,135.0,145.0,1.0222222222222221,0.9517241379310345,1.0296296296296297,0.9586206896551724,,79.5,N,N,,,126.0,NORMAL,138.0
CDISCPILOT01,1028,01-701-1028,Xanomeline High Dose,81.0,Xanomeline High Dose,81.0,2023-07-20,2024-01-15,71.0,65-80,2.0,WHITE,1.0,M,Y,,Y,Week 8,8.0,54.0,2023-09-11,WEEK 8,8.0,Sodium (mmol/L),SODIUM,18.0,CHEM,136.0,139.0,-3.0,135.0,145.0,1.0074074074074073,0.9379310344827586,1.0296296296296297,0.9586206896551724,Y,81.5,N,N,,,156.0,NORMAL,136.0
CDISCPILOT01,1028,01-701-1028,Xanomeline High Dose,81.0,Xanomeline High Dose,81.0,2023-07-20,2024-01-15,71.0,65-80,2.0,WHITE,1.0,M,Y,,Y,Week 12,12.0,83.0,2023-10-10,WEEK 12,9.0,Sodium (mmol/L),SODIUM,18.0,CHEM,140.0,139.0,1.0,135.0,145.0,1.037037037037037,0.9655172413793104,1.0296296296296297,0.9586206896551724,,77.5,N,N,,,188.0,NORMAL,140.0
CDISCPILOT01,1028,01-701-1028,Xanomeline High Dose,81.0,Xanomeline High Dose,81.0,2023-07-20,2024-01-15,71.0,65-80,2.0,WHITE,1.0,M,Y,,Y,Week 16,16.0,111.0,2023-11-07,WEEK 16,10.0,Sodium (mmol/L),SODIUM,18.0,CHEM,140.0,139.0,1.0,135.0,145.0,1.037037037037037,0.9655172413793104,1.0296296296296297,0.9586206896551724,,77.5,N,N,,,223.0,NORMAL,140.0
CDISCPILOT01,1028,01-701-1028,Xanomeline High Dose,81.0,Xanomeline High Dose,81.0,2023-07-20,2024-01-15,71.0,65-80,2.0,WHITE,1.0,M,Y,,Y,Week 20,20.0,139.0,2023-12-05,WEEK 20,11.0,Sodium (mmol/L),SODIUM,18.0,CHEM,137.0,139.0,-2.0,135.0,145.0,1.0148148148148148,0.9448275862068966,1.0296296296296297,0.9586206896551724,,80.5,N,N,,,254.0,NORMAL,137.0
CDISCPILOT01,1028,01-701-1028,Xanomeline High Dose,81.0,Xanomeline High Dose,81.0,2023-07-20,2024-01-15,71.0,65-80,2.0,WHITE,1.0,M,Y,,Y,Week 24,24.0,172.0,2024-01-07,WEEK 24,12.0,Sodium (mmol/L),SODIUM,18.0,CHEM,140.0,139.0,1.0,135.0,145.0,1.037037037037037,0.9655172413793104,1.0296296296296297,0.9586206896551724,,77.5,N,N,,Y,287.0,NORMAL,140.0
CDISCPILOT01,1028,01-701-1028,Xanomeline High Dose,81.0,Xanomeline High Dose,81.0,2023-07-20,2024-01-15,71.0,65-80,2.0,WHITE,1.0,M,Y,,Y,End of Treatment,99.0,172.0,2024-01-07,WEEK 24,12.0,Sodium (mmol/L),SODIUM,18.0,CHEM,140.0,139.0,1.0,135.0,145.0,1.037037037037037,0.9655172413793104,1.0296296296296297,0.9586206896551724,,77.5,N,N,,Y,287.0,NORMAL,140.0
CDISCPILOT01,1028,01-701-1028,Xanomeline High Dose,81.0,Xanomeline High Dose,81.0,2023-07-20,2024-01-15,71.0,65-80,2.0,WHITE,1.0,M,Y,,Y,Week 26,26.0,180.0,2024-01-15,WEEK 26,13.0,Sodium (mmol/L),SODIUM,18.0,CHEM,138.0,139.0,-1.0,135.0,145.0,1.0222222222222221,0.9517241379310345,1.0296296296296297,0.9586206896551724,,79.5,N,N,,,322.0,NORMAL,138.0
CDISCPILOT01,1033,01-701-1033,Xanomeline Low Dose,54.0,Xanomeline Low Dose,54.0,2024-03-18,2024-03-31,74.0,65-80,2.0,WHITE,1.0,M,N,,Y,Baseline,0.0,-8.0,2024-03-10,SCREENING 1,1.0,Sodium (mmol/L),SODIUM,18.0,CHEM,145.0,145.0,<NA>,135.0,145.0,1.0740740740740742,1.0,1.0740740740740742,1.0,,77.5,N,N,Y,,26.0,NORMAL,145.0
CDISCPILOT01,1033,01-701-1033,Xanomeline Low Dose,54.0,Xanomeline Low Dose,54.0,2024-03-18,2024-03-31,74.0,65-80,2.0,WHITE,1.0,M,N,,Y,Week 2,2.0,15.0,2024-04-01,WEEK 2,4.0,Sodium (mmol/L),SODIUM,18.0,CHEM,140.0,145.0,-5.0,135.0,145.0,1.037037037037037,0.9655172413793104,1.0740740740740742,1.0,Y,77.5,N,N,,,63.0,NORMAL,140.0
CDISCPILOT01,1033,01-701-1033,Xanomeline Low Dose,54.0,Xanomeline Low Dose,54.0,2024-03-18,2024-03-31,74.0,65-80,2.0,WHITE,1.0,M,N,,Y,Week 4,4.0,28.0,2024-04-14,WEEK 4,5.0,Sodium (mmol/L),SODIUM,18.0,CHEM,140.0,145.0,-5.0,135.0,145.0,1.037037037037037,0.9655172413793104,1.0740740740740742,1.0,,77.5,N,N,,Y,98.0,NORMAL,140.0
CDISCPILOT01,1033,01-701-1033,Xanomeline Low Dose,54.0,Xanomeline Low Dose,54.0,2024-03-18,2024-03-31,74.0,65-80,2.0,WHITE,1.0,M,N,,Y,End of Treatment,99.0,28.0,2024-04-14,WEEK 4,5.0,Sodium (mmol/L),SODIUM,18.0,CHEM,140.0,145.0,-5.0,135.0,145.0,1.037037037037037,0.9655172413793104,1.0740740740740742,1.0,,77.5,N,N,,Y,98.0,NORMAL,140.0
CDISCPILOT01,1034,01-701-1034,Xanomeline High Dose,81.0,Xanomeline High Dose,81.0,2024-07-01,2024-12-30,77.0,65-80,2.0,WHITE,1.0,F,Y,,Y,Baseline,0.0,-7.0,2024-06-24,SCREENING 1,1.0,Sodium (mmol/L),SODIUM,18.0,CHEM,138.0,138.0,<NA>,135.0,145.0,1.0222222222222221,0.9517241379310345,1.0222222222222221,0.9517241379310345,,79.5,N,N,Y,,27.0,NORMAL,138.0
CDISCPILOT01,1034,01-701-1034,Xanomeline High Dose,81.0,Xanomeline High Dose,81.0,2024-07-01,2024-12-30,77.0,65-80,2.0,WHITE,1.0,F,Y,,Y,Week 2,2.0,15.0,2024-07-15,WEEK 2,4.0,Sodium (mmol/L),SODIUM,18.0,CHEM,140.0,138.0,2.0,135.0,145.0,1.037037037037037,0.9655172413793104,1.0222222222222221,0.9517241379310345,,77.5,N,N,,,65.0,NORMAL,140.0
CDISCPILOT01,1034,01-701-1034,Xanomeline High Dose,81.0,Xanomeline High Dose,81.0,2024-07-01,2024-12-30,77.0,65-80,2.0,WHITE,1.0,F,Y,,Y,Week 4,4.0,29.0,2024-07-29,WEEK 4,5.0,Sodium (mmol/L),SODIUM,18.0,CHEM,138.0,138.0,0.0,135.0,145.0,1.0222222222222221,0.9517241379310345,1.0222222222222221,0.9517241379310345,,79.5,N,N,,,99.0,NORMAL,138.0
CDISCPILOT01,1034,01-701-1034,Xanomeline High Dose,81.0,Xanomeline High Dose,81.0,2024-07-01,2024-12-30,77.0,65-80,2.0,WHITE,1.0,F,Y,,Y,Week 6,6.0,42.0,2024-08-11,WEEK 6,7.0,Sodium (mmol/L),SODIUM,18.0,CHEM,143.0,138.0,5.0,135.0,145.0,1.0592592592592593,0.9862068965517241,1.0222222222222221,0.9517241379310345,,75.5,N,N,,,130.0,NORMAL,143.0
CDISCPILOT01,1034,01-701-1034,Xanomeline High Dose,81.0,Xanomeline High Dose,81.0,2024-07-01,2024-12-30,77.0,65-80,2.0,WHITE,1.0,F,Y,,Y,Week 8,8.0,57.0,2024-08-26,WEEK 8,8.0,Sodium (mmol/L),SODIUM,18.0,CHEM,139.0,138.0,1.0,135.0,145.0,1.0296296296296297,0.9586206896551724,1.0222222222222221,0.9517241379310345,,78.5,N,N,,,160.0,NORMAL,139.0
CDISCPILOT01,1034,01-701-1034,Xanomeline High Dose,81.0,Xanomeline High Dose,81.0,2024-07-01,2024-12-30,77.0,65-80,2.0,WHITE,1.0,F,Y,,Y,Week 12,12.0,87.0,2024-09-25,WEEK 12,9.0,Sodium (mmol/L),SODIUM,18.0,CHEM,138.0,138.0,0.0,135.0,145.0,1.0222222222222221,0.9517241379310345,1.0222222222222221,0.9517241379310345,,79.5,N,N,,,192.0,NORMAL,138.0
CDISCPILOT01,1034,01-701-1034,Xanomeline High Dose,81.0,Xanomeline High Dose,81.0,2024-07-01,2024-12-30,77.0,65-80,2.0,WHITE,1.0,F,Y,,Y,Week 16,16.0,113.0,2024-10-21,WEEK 16,10.0,Sodium (mmol/L),SODIUM,18.0,CHEM,139.0,138.0,1.0,135.0,145.0,1.0296296296296297,0.9586206896551724,1.0222222222222221,0.9517241379310345,,78.5,N,N,,,226.0,NORMAL,139.0
CDISCPILOT01,1034,01-701-1034,Xanomeline High Dose,81.0,Xanomeline High Dose,81.0,2024-07-01,2024-12-30,77.0,65-80,2.0,WHITE,1.0,F,Y,,Y,Week 20,20.0,141.0,2024-11-18,WEEK 20,11.0,Sodium (mmol/L),SODIUM,18.0,CHEM,138.0,138.0,0.0,135.0,145.0,1.0222222222222221,0.9517241379310345,1.0222222222222221,0.9517241379310345,,79.5,N,N,,,257.0,NORMAL,138.0
CDISCPILOT01,1034,01-701-1034,Xanomeline High Dose,81.0,Xanomeline High Dose,81.0,2024-07-01,2024-12-30,77.0,65-80,2.0,WHITE,1.0,F,Y,,Y,Week 24,24.0,170.0,2024-12-17,WEEK 24,12.0,Sodium (mmol/L),SODIUM,18.0,CHEM,134.0,138.0,-4.0,135.0,145.0,0.9925925925925926,0.9241379310344827,1.0222222222222221,0.9517241379310345,Y,83.5,N,N,,Y,290.0,LOW,134.0
CDISCPILOT01,1034,01-701-1034,Xanomeline High Dose,81.0,Xanomeline High Dose,81.0,2024-07-01,2024-12-30,77.0,65-80,2.0,WHITE,1.0,F,Y,,Y,End of Treatment,99.0,170.0,2024-12-17,WEEK 24,12.0,Sodium (mmol/L),SODIUM,18.0,CHEM,134.0,138.0,-4.0,135.0,145.0,0.9925925925925926,0.9241379310344827,1.0222222222222221,0.9517241379310345,Y,83.5,N,N,,Y,290.0,LOW,134.0
CDISCPILOT01,1034,01-701-1034,Xanomeline High Dose,81.0,Xanomeline High Dose,81.0,2024-07-01,2024-12-30,77.0,65-80,2.0,WHITE,1.0,F,Y,,Y,Week 26,26.0,183.0,2024-12-30,WEEK 26,13.0,Sodium (mmol/L),SODIUM,18.0,CHEM,134.0,138.0,-4.0,135.0,145.0,0.9925925925925926,0.9241379310344827,1.0222222222222221,0.9517241379310345,,83.5,N,N,,,324.0,LOW,134.0
CDISCPILOT01,1047,01-701-1047,Placebo,0.0,Placebo,0.0,2023-02-13,2023-03-10,85.0,>80,3.0,WHITE,1.0,F,N,Y,Y,Baseline,0.0,-21.0,2023-01-23,SCREENING 1,1.0,Sodium (mmol/L),SODIUM,18.0,CHEM,144.0,144.0,<NA>,135.0,145.0,1.0666666666666667,0.993103448275862,1.0666666666666667,0.993103448275862,,76.5,N,N,Y,,26.0,NORMAL,144.0
CDISCPILOT01,1047,01-701-1047,Placebo,0.0,Placebo,0.0,2023-02-13,2023-03-10,85.0,>80,3.0,WHITE,1.0,F,N,Y,Y,Week 2,2.0,14.0,2023-02-26,WEEK 2,4.0,Sodium (mmol/L),SODIUM,18.0,CHEM,141.0,144.0,-3.0,135.0,145.0,1.0444444444444445,0.9724137931034482,1.0666666666666667,0.993103448275862,Y,76.5,N,N,,,63.0,NORMAL,141.0
CDISCPILOT01,1047,01-701-1047,Placebo,0.0,Placebo,0.0,2023-02-13,2023-03-10,85.0,>80,3.0,WHITE,1.0,F,N,Y,Y,Week 4,4.0,27.0,2023-03-11,WEEK 4,5.0,Sodium (mmol/L),SODIUM,18.0,CHEM,142.0,144.0,-2.0,135.0,145.0,1.0518518518518518,0.9793103448275862,1.0666666666666667,0.993103448275862,,75.5,N,N,,Y,96.0,NORMAL,142.0
CDISCPILOT01,1047,01-701-1047,Placebo,0.0,Placebo,0.0,2023-02-13,2023-03-10,85.0,>80,3.0,WHITE,1.0,F,N,Y,Y,End of Treatment,99.0,27.0,2023-03-11,WEEK 4,5.0,Sodium (mmol/L),SODIUM,18.0,CHEM,142.0,144.0,-2.0,135.0,145.0,1.0518518518518518,0.9793103448275862,1.0666666666666667,0.993103448275862,,75.5,N,N,,Y,96.0,NORMAL,142.0
CDISCPILOT01,1097,01-701-1097,Xanomeline Low Dose,54.0,Xanomeline Low Dose,54.0,2024-01-02,2024-07-09,68.0,65-80,2.0,WHITE,1.0,M,Y,,Y,Baseline,0.0,-9.0,2023-12-24,SCREENING 1,1.0,Sodium (mmol/L),SODIUM,18.0,CHEM,134.0,134.0,<NA>,135.0,145.0,0.9925925925925926,0.9241379310344827,0.9925925925925926,0.9241379310344827,,83.5,N,N,Y,,26.0,LOW,134.0
CDISCPILOT01,1097,01-701-1097,Xanomeline Low Dose,54.0,Xanomeline Low Dose,54.0,2024-01-02,2024-07-09,68.0,65-80,2.0,WHITE,1.0,M,Y,,Y,Week 2,2.0,15.0,2024-01-16,WEEK 2,4.0,Sodium (mmol/L),SODIUM,18.0,CHEM,139.0,134.0,5.0,135.0,145.0,1.0296296296296297,0.9586206896551724,0.9925925925925926,0.9241379310344827,,78.5,N,N,,,63.0,NORMAL,139.0
CDISCPILOT01,1097,01-701-1097,Xanomeline Low Dose,54.0,Xanomeline Low Dose,54.0,2024-01-02,2024-07-09,68.0,65-80,2.0,WHITE,1.0,M,Y,,Y,Week 4,4.0,29.0,2024-01-30,WEEK 4,5.0,Sodium (mmol/L),SODIUM,18.0,CHEM,138.0,134.0,4.0,135.0,145.0,1.0222222222222221,0.9517241379310345,0.9925925925925926,0.9241379310344827,,79.5,N,N,,,96.0,NORMAL,138.0
CDISCPILOT01,1097,01-701-1097,Xanomeline Low Dose,54.0,Xanomeline Low Dose,54.0,2024-01-02,2024-07-09,68.0,65-80,2.0,WHITE,1.0,M,Y,,Y,Week 6,6.0,42.0,2024-02-12,WEEK 6,7.0,Sodium (mmol/L),SODIUM,18.0,CHEM,141.0,134.0,7.0,135.0,145.0,1.0444444444444445,0.9724137931034482,0.9925925925925926,0.9241379310344827,,76.5,N,N,,,126.0,NORMAL,141.0
CDISCPILOT01,1097,01-701-1097,Xanomeline Low Dose,54.0,Xanomeline Low Dose,54.0,2024-01-02,2024-07-09,68.0,65-80,2.0,WHITE,1.0,M,Y,,Y,Week 8,8.0,57.0,2024-02-27,WEEK 8,8.0,Sodium (mmol/L),SODIUM,18.0,CHEM,136.0,134.0,2.0,135.0,145.0,1.0074074074074073,0.9379310344827586,0.9925925925925926,0.9241379310344827,Y,81.5,N,N,,,156.0,NORMAL,136.0
